Folder: XRD_showcase/app

File: XRD_data_set.UXD
; C:\DIFFDAT1\Dorothea\Richard\Neuer Ordner\191126_P1_MER_RS03_3d_150_unkalz_V57.raw(Diffrac Plus V1.01 file) converted by XCH V1.0
_FILEVERSION=2
_SAMPLE='191126_P1_MER_RS03_3d_150_unkalz_V57'
_SITE='Deutschland'
_USER='Administrator'
_ATTACHMENTS_CODE=0
_GONIOMETER_RADIUS=217.5
_FIXED_DIVSLIT=0.000000
_FIXED_SAMPLESLIT=0.000000
_FIXED_DETSLIT=10.39
_MONOCHROMATOR=0
; None
_THIN_FILM='N'
_BETA_FILTER='N'
_FIXED_ANTISLIT=6.970000
_ANALYZER_CODE=0
; None
_DATEMEASURED='26-Nov-2019 13:44:11'
_WL_UNIT='A'
_WL1=1.540600
_WL2=1.544390
_WL3=1.392220
_WLRATIO=0.500000
_ANODE='Cu'
; (Data for Range number 1)
_DRIVE='COUPLED'
_STEPTIME=398.004
_STEPSIZE=0.015259
_STEPMODE='C'
_START=5.000000
_THETA=2.500000
_2THETA=5.000000
_KHI=0.000000
_PHI=0.000000
_X=0.000000
_Y=0.000000
_Z=0.000000
_DIVERGENCE=0.298000
_ANTISCATTER=0.298000
_DETECTOR=5
_DETECTORSLIT='unkn'
_AUX1=0.000000
_AUX2=0.000000
_AUX3=0.000000
_TIMESTARTED=29
_TEMP_RATE=-1.000000
_TEMP_DELAY=-1.000000
_KV=35
_MA=40
_RANGE_WL=1.540600
_3DPLANE=0
_2THETACOUNTS
   5.0000      1645
   5.1678      1632
   5.3357      1533
   5.5035      1523
   5.6714      1437
   5.8392      1471
   6.0071      1469
   6.1749      1540
   6.3428      1469
   6.5106      1325
   6.6785      1191
   6.8463      1245
   7.0142      1195
   7.1820      1102
   7.3499      1125
   7.5177      1064
   7.6856      1067
   7.8534      1051
   8.0213      1055
   8.1891      1099
   8.3570      1002
   8.5248      1055
   8.6927      1153
   8.8605      1406
   9.0283      1397
   9.1962      1091
   9.3640       998
   9.5319       925
   9.6997       949
   9.8676       913
  10.0354       902
  10.2033       949
  10.3711       955
  10.5390      1045
  10.7068      1435
  10.8747      3539
  11.0425      2934
  11.2104      1221
  11.3782      1047
  11.5461       969
  11.7139       988
  11.8818       969
  12.0496      1026
  12.2175      1170
  12.3853      2001
  12.5532      4998
  12.7210      3864
  12.8889      1401
  13.0567       957
  13.2245       796
  13.3924       739
  13.5602       768
  13.7281       716
  13.8959       727
  14.0638       691
  14.2316       763
  14.3995       627
  14.5673       669
  14.7352       639
  14.9030       674
  15.0709       638
  15.2387       607
  15.4066       678
  15.5744       601
  15.7423       636
  15.9101       640
  16.0780       696
  16.2458       775
  16.4137      1025
  16.5815      1928
  16.7494      2510
  16.9172      1265
  17.0850       870
  17.2529       800
  17.4207       811
  17.5886      1057
  17.7564      3327
  17.9243      4203
  18.0921      1265
  18.2600       776
  18.4278       679
  18.5957       645
  18.7635       604
  18.9314       654
  19.0992       682
  19.2671       709
  19.4349       721
  19.6028       866
  19.7706      1408
  19.9385      2553
  20.1063      2380
  20.2742      1316
  20.4420       983
  20.6099      1045
  20.7777      1891
  20.9456      2283
  21.1134      1228
  21.2812       880
  21.4491       734
  21.6169       769
  21.7848      1045
  21.9526      1224
  22.1205       782
  22.2883       673
  22.4562       601
  22.6240       616
  22.7919       638
  22.9597       606
  23.1276       545
  23.2954       586
  23.4633       634
  23.6311       583
  23.7990       681
  23.9668       718
  24.1347       743
  24.3025      1144
  24.4704      1858
  24.6382      1388
  24.8061       910
  24.9739       830
  25.1417       947
  25.3096       862
  25.4774       857
  25.6453       753
  25.8131       785
  25.9810      1027
  26.1488      1503
  26.3167      1066
  26.4845       877
  26.6524       913
  26.8202      1049
  26.9881      1323
  27.1559      1602
  27.3238      3348
  27.4916      8349
  27.6595      8163
  27.8273      4137
  27.9952      3115
  28.1630      5528
  28.3309      6584
  28.4987      3893
  28.6666      1834
  28.8344      1231
  29.0022       998
  29.1701       934
  29.3379       900
  29.5058       896
  29.6736       949
  29.8415      1119
  30.0093      1363
  30.1772      2787
  30.3450      5658
  30.5129      4346
  30.6807      1892
  30.8486      1109
  31.0164       902
  31.1843       810
  31.3521       756
  31.5200       814
  31.6878       833
  31.8557       875
  32.0235       888
  32.1914      1127
  32.3592      1423
  32.5271      1760
  32.6949      2211
  32.8628      3825
  33.0306      4012
  33.1984      2663
  33.3663      1697
  33.5341      1762
  33.7020      2044
  33.8698      1315
  34.0377       852
  34.2055       706
  34.3734       728
  34.5412       702
  34.7091       736
  34.8769       883
  35.0448      1099
  35.2126      1779
  35.3805      2326
  35.5483      2011
  35.7162      1213
  35.8840      1061
  36.0519       913
  36.2197       806
  36.3876       668
  36.5554       776
  36.7233       900
  36.8911      1118
  37.0589      1341
  37.2268      1243
  37.3946      1103
  37.5625      1268
  37.7303       879
  37.8982       752
  38.0660       869
  38.2339       920
  38.4017       989
  38.5696       835
  38.7374       664
  38.9053       605
  39.0731       546
  39.2410       533
  39.4088       556
  39.5767       555
  39.7445       534
  39.9124       562
  40.0802       583
  40.2481       568
  40.4159       588
  40.5838       580
  40.7516       583
  40.9195       632
  41.0873       741
  41.2551       860
  41.4230      1107
  41.5908      1225
  41.7587      1139
  41.9265      1036
  42.0944       878
  42.2622       757
  42.4301       692
  42.5979       604
  42.7658       565
  42.9336       519
  43.1015       462
  43.2693       500
  43.4372       479
  43.6050       488
  43.7729       542
  43.9407       586
  44.1086       569
  44.2764       572
  44.4443       518
  44.6121       492
  44.7800       493
  44.9478       490
  45.1156       528
  45.2835       514
  45.4513       621
  45.6192       605
  45.7870       621
  45.9549       651
  46.1227       755
  46.2906       737
  46.4584       667
  46.6263       607
  46.7941       484
  46.9620       489
  47.1298       442
  47.2977       536
  47.4655       581
  47.6334       634
  47.8012       593
  47.9691       485
  48.1369       509
  48.3048       466
  48.4726       464
  48.6405       599
  48.8083       856
  48.9761       900
  49.1440       754
  49.3118       825
  49.4797       865
  49.6475       690
  49.8154       579
  49.9832       514
  50.1511       502
  50.3189       478
  50.4868       449
  50.6546       482
  50.8225       534
  50.9903       588
  51.1582       863
  51.3260      1127
  51.4939      1253
  51.6617      1224
  51.8296       988
  51.9974       776
  52.1653       563
  52.3331       572
  52.5010       578
  52.6688       618
  52.8367       676
  53.0045       883
  53.1723      1180
  53.3402      1256
  53.5080      1043
  53.6759       924
  53.8437       716
  54.0116       599
  54.1794       542
  54.3473       549
  54.5151       610
  54.6830       666
  54.8508       921
  55.0034      1094

File: XRD_data_set_lit.txt
5.000	1.00
5.180	1.00
5.360	1.00
5.540	1.00
5.720	1.00
5.900	1.00
6.080	1.00
6.260	1.00
6.440	1.00
6.620	1.00
6.800	1.00
6.980	1.00
7.160	1.00
7.340	1.00
7.520	1.00
7.700	1.00
7.880	1.00
8.060	1.00
8.240	1.00
8.420	1.00
8.600	15.80
8.780	608.33
8.960	34.23
9.140	1.00
9.320	1.00
9.500	1.00
9.680	1.00
9.860	1.00
10.040	1.00
10.220	1.00
10.400	1.00
10.580	22.32
10.760	239.96
10.940	275.39
11.120	29.98
11.300	1.00
11.480	1.00
11.660	1.00
11.840	1.00
12.020	1.00
12.200	102.80
12.380	2545.57
12.560	6058.65
12.740	107.95
12.920	1.00
13.100	1.00
13.280	1.00
13.460	1.00
13.640	1.00
13.820	1.00
14.000	1.00
14.180	1.00
14.360	1.00
14.540	1.00
14.720	1.00
14.900	1.00
15.080	1.00
15.260	1.00
15.440	1.00
15.620	1.00
15.800	1.00
15.980	1.00
16.160	1.00
16.340	225.80
16.520	9987.82
16.700	708.83
16.880	62.78
17.060	1.00
17.240	1.00
17.420	47.82
17.600	490.00
17.780	2870.52
17.960	226.62
18.140	1.00
18.320	1.00
18.500	1.00
18.680	1.00
18.860	1.00
19.040	1.00
19.220	1.00
19.400	1.00
19.580	41.68
19.760	395.76
19.940	393.59
20.120	41.02
20.300	1.00
20.480	58.31
20.660	722.01
20.840	400.72
21.020	48.28
21.200	1.00
21.380	1.00
21.560	46.88
21.740	774.13
21.920	399.73
22.100	42.56
22.280	1.00
22.460	1.00
22.640	1.00
22.820	1.00
23.000	1.00
23.180	1.00
23.360	1.00
23.540	1.00
23.720	1.00
23.900	1.00
24.080	60.82
24.260	1124.56
24.440	524.52
24.620	46.56
24.800	5.28
24.980	204.07
25.160	254.21
25.340	38.70
25.520	7.71
25.700	1.00
25.880	1.00
26.060	1.00
26.240	1.00
26.420	3.82
26.600	46.35
26.780	78.37
26.960	4.99
27.140	157.71
27.320	8539.53
27.500	5739.77
27.680	2371.96
27.860	399.50
28.040	11750.47
28.220	11935.40
28.400	288.27
28.580	1.00
28.760	1.00
28.940	1.00
29.120	1.00
29.300	1.00
29.480	1.00
29.660	1.00
29.840	1.00
30.020	1.00
30.200	351.90
30.380	17059.98
30.560	590.36
30.740	80.80
30.920	37.47
31.100	10.82
31.280	1.37
31.460	1.00
31.640	1.00
31.820	1.26
32.000	36.27
32.180	210.11
32.360	752.11
32.540	146.89
32.720	2229.32
32.900	4810.88
33.080	603.30
33.260	110.66
33.440	1043.25
33.620	627.37
33.800	31.83
33.980	1.00
34.160	1.00
34.340	1.00
34.520	1.00
34.700	1.00
34.880	43.40
35.060	402.52
35.240	528.01
35.420	2937.83
35.600	90.37
35.780	819.25
35.960	59.26
36.140	181.36
36.320	7.31
36.500	1.00
36.680	29.29
36.860	598.97
37.040	889.39
37.220	276.22
37.400	40.71
37.580	1543.87
37.760	326.26
37.940	47.93
38.120	23.87
38.300	208.77
38.480	9.54
38.660	2.22
38.840	1.00
39.020	1.00
39.200	3.16
39.380	9.76
39.560	381.46
39.740	8.43
39.920	3.95
40.100	13.81
40.280	112.54
40.460	26.10
40.640	2.08
40.820	1.13
41.000	1.43
41.180	57.58
41.360	2051.72
41.540	587.06
41.720	162.62
41.900	648.59
42.080	67.25
42.260	43.16
42.440	31.50
42.620	2.31
42.800	1.28
42.980	1.00
43.160	1.00
43.340	1.85
43.520	12.47
43.700	105.77
43.880	846.51
44.060	63.65
44.240	117.04
44.420	364.96
44.600	45.52
44.780	6.44
44.960	41.91
45.140	261.99
45.320	161.50
45.500	94.75
45.680	35.75
45.860	1099.21
46.040	970.75
46.220	329.82
46.400	272.69
46.580	15.99
46.760	2.01
46.940	1.00
47.120	4.07
47.300	34.79
47.480	163.62
47.660	48.74
47.840	306.59
48.020	34.34
48.200	6.74
48.380	1.26
48.560	7.01
48.740	190.67
48.920	138.73
49.100	581.38
49.280	111.35
49.460	1210.39
49.640	504.36
49.820	97.25
50.000	30.69
50.180	3.08
50.360	1.00
50.540	1.00
50.720	10.27
50.900	37.50
51.080	1583.36
51.260	569.03
51.440	440.96
51.620	181.67
51.800	1869.39
51.980	62.86
52.160	24.87
52.340	43.36
52.520	447.97
52.700	229.56
52.880	78.77
53.060	1462.36
53.240	608.00
53.420	809.56
53.600	912.24
53.780	27.69
53.960	6.80
54.140	7.24
54.320	28.24
54.500	672.56
54.680	52.49
54.860	308.43
55.000	354.51